Folder: Concrete-Toolchanger/Data/Thesis_Samples_Data/Flexural_Rebar_2

Note: README.md
# Concrete-Toolchanger
My senior thesis project from Princeton consisted of developing a multi-material concrete 3D-printer.

Using an E3D TOolchanger as the base motion system, custom concrete and silicone extruders were developed to be compatible with the toolchanging system.
A system for reliably priming the polymer Hemera extruders was also developed. The mechanics and electronics were controlled using a Duet board and RRF3,
which allowed for all of the toolchanging procedures and material interactions to be controlled by macros. Additionally, rather than using a traditional
slicer, FullControlGCode was used to create parametric toolpaths tailored to each type of extruder. Together, silicone and polymers were combined with
cement and mortar to create new concrete multi-materials with augmented material properties.

Check out the full thesis PDF for more details!

File: Flexural_Rebar_2.csv
"File Path: C:\Users\Lab User\Desktop\Will\Thesis Tests\Test Run 2 04-8-22 21 47 52 PM\DAQ- Crosshead, … - (Timed).csv   ",,
Test: MTS EM Flexure (3-Point Bend) - Will 2,,
Test Run: Test Run 2,,
Date: 4/8/2022 9:18:36 PM,,
,,
,,
Crosshead ,Load ,Time
mm,N,sec
4.88E-05,2.35478,0.02
0.009667969,20.1828,5.82
0.0193848,41.7681,11.62
0.0291016,68.1736,17.42
0.0386719,97.5898,23.22
0.0484375,133.654,29.02
0.057959,182.444,34.82
0.0677246,238.098,40.62
0.0772949,294.929,46.42
0.0870605,342.536,52.22
0.0967285,385.984,58.02
0.106348,445.37,63.82
0.116016,492.065,69.62
0.125635,544.37,75.42
0.135449,593.735,81.22
0.144922,493.884,87.02
0.154736,478.35,92.82
0.164307,503.379,98.62
0.174023,549.555,104.42
0.183691,597.194,110.22
0.193359,643.233,116.02
0.203076,675.756,121.82
0.212646,712.015,127.62
0.222412,724.592,133.42
0.231982,729.571,139.22
0.241699,740.787,145.02
0.25127,751.626,150.82
0.261084,775.694,156.62
0.270654,800.103,162.42
0.28042,829.49,168.22
0.28999,829.839,174.02
0.299756,867.648,179.82
0.309326,899.148,185.62
0.319043,929.402,191.42
0.32876,955.495,197.22
0.338281,970.325,203.02
0.348047,842.848,208.82
0.357617,865.837,214.62
0.367432,895.49,220.42
0.377002,925.981,226.22
0.386719,956.882,232.02
0.396387,976.759,237.82
0.406006,1003.11,243.62
0.415723,1031.05,249.42
0.425293,1055.67,255.22
0.435107,1078.8,261.02
0.444629,1098.6,266.82
0.454395,1116.51,272.62
0.464014,1108.06,278.42
0.473682,1136.82,284.22
0.48335,1164.1,290.02
0.493066,1190.45,295.82
0.502734,1215.9,301.62
0.512305,1240.06,307.42
0.522119,1262.15,313.22
0.531641,1251.43,319.02
0.541406,1249.96,324.82
0.550977,1258.21,330.62
0.560742,1285.79,336.42
0.570361,1310.77,342.22
0.580029,1335.46,348.02
0.589697,1357.87,353.82
0.599414,1381.1,359.62
0.609033,1403.03,365.42
0.618652,1424.78,371.22
0.628418,1444.27,377.02
0.637939,1462.17,382.82
0.647754,1477.64,388.62
0.657324,1493.61,394.42
0.66709,1502.84,400.22
0.67666,1512.01,406.02
0.686377,1531.64,411.82
0.696094,1547.71,417.62
0.705664,1558.14,423.42
0.71543,1552.99,429.22
0.724951,1562.21,435.02
0.734766,1567.17,440.82
0.744287,1572.2,446.62
0.754102,1587.87,452.42
0.763721,1602.55,458.22
0.773389,1601.82,464.02
0.783057,1160.23,469.82
0.792676,1174.79,475.62
0.802393,1182.94,481.42
0.811963,1194.07,487.22
0.821728,1210.21,493.02
0.831299,1216.03,498.82
0.841064,1230.09,504.62
0.850635,1239.1,510.42
0.860449,1251.58,516.22
0.87002,1263.54,522.02
0.879687,1276.97,527.82
0.889404,1284.95,533.62
0.899023,1295.43,539.42
0.908691,1308.49,545.22
0.918311,1264.42,551.02
0.928125,1274.12,556.82
0.937646,1284.52,562.62
0.947363,1283.92,568.42
0.956982,1289.05,574.22
0.966748,1299.77,580.02
0.976367,1311.41,585.82
0.986035,1318.67,591.62
0.995752,1325.79,597.42
1.00532,1332.05,603.22
1.01509,1342.99,609.02
1.02461,1352.63,614.82
1.03442,1364.45,620.62
1.04395,1368.27,626.42
1.05376,1349.97,632.22
1.06338,1343.9,638.02
1.073,1215.58,643.82
1.08276,1219.71,649.62
1.09233,1221.93,655.42
1.1021,1101.12,661.22
1.11157,1075.01,667.02
1.12144,1084,672.82
1.13096,1086.7,678.62
1.14072,1094.27,684.42
1.15034,1100.98,690.22
1.16006,1105.95,696.02
1.16973,1113.86,701.82
1.17935,1121.55,707.62
1.18906,1118.5,713.42
1.19868,1122.77,719.22
1.2084,1128.72,725.02
1.21797,1135.53,730.82
1.22773,1140.94,736.62
1.2373,1150.31,742.42
1.24707,1160.57,748.22
1.25669,1167.81,754.02
1.26641,1175.35,759.82
1.27603,1177.86,765.62
1.28569,1180.45,771.42
1.29546,1188,777.22
1.30493,1189.41,783.02
1.31475,1178.2,788.82
1.32432,1186.65,794.62
1.33408,1197.61,800.42
1.34365,1204.01,806.22
1.35342,1211.21,812.02
1.36304,1216.27,817.82
1.37266,1215.7,823.62
1.38242,1222.33,829.42
1.39194,1230.58,835.22
1.40176,1234.98,841.02
1.41128,1239.47,846.82
1.42109,1245.3,852.62
1.43066,1250.65,858.42
1.44038,1254.55,864.22
1.45005,1256.1,870.02
1.45972,1258.89,875.82
1.46938,1254.26,881.62
1.479,1255.8,887.42
1.48872,1260.77,893.22
1.49834,1267.57,899.02
1.50806,1275.45,904.82
1.51763,1274.69,910.62
1.52744,1279.41,916.42
1.53701,1284.95,922.22
1.54668,1293.58,928.02
1.5564,1300.11,933.82
1.56606,1304.95,939.62
1.57568,1311.92,945.42
1.58535,1274.27,951.22
1.59512,1240.19,957.02
1.60464,1244.75,962.82
1.6144,1251.49,968.62
1.62397,1249.16,974.42
1.63374,1257.64,980.22
1.64331,1266.87,986.02
1.65303,1274.14,991.82
1.66274,1264.66,997.62
1.67231,1217.63,1003.42
1.68208,1221.55,1009.22
1.69165,1194.82,1015.02
1.70142,1195.42,1020.82
1.71094,1200.92,1026.62
1.72075,1204.48,1032.42
1.73037,1209.11,1038.22
1.74004,1219.71,1044.02
1.74971,1225.99,1049.82
1.75937,1232.53,1055.62
1.76909,1236.33,1061.42
1.77861,1201.33,1067.22
1.78843,1199.67,1073.02
1.798,1192.76,1078.82
1.80771,1196.13,1084.62
1.81733,1207.08,1090.42
1.82705,1218.75,1096.22
1.83672,1229.1,1102.02
1.84639,1238.31,1107.82
1.85605,1241.83,1113.62
1.86567,1241.15,1119.42
1.87539,1250.7,1125.22
1.88501,1254.1,1131.02
1.89478,1259.48,1136.82
1.9043,1267.98,1142.62
1.91406,1275.28,1148.42
1.92368,1280.45,1154.22
1.9334,1285.17,1160.02
1.94302,1281.36,1165.82
1.95269,1281.06,1171.62
1.9624,1286.75,1177.42
1.97197,1290.99,1183.22
1.98174,1287.36,1189.02
1.99126,1165.67,1194.82
2.00107,1163.07,1200.62
2.0106,1174.37,1206.42
2.02041,1184.55,1212.22
2.03003,1192.08,1218.02
2.0397,1187.05,1223.82
2.04941,1186.71,1229.62
2.05898,1189.24,1235.42
2.06875,1192.81,1241.22
2.07827,1190.7,1247.02
2.08809,1187.35,1252.82
2.09766,1188.51,1258.62
2.10737,1190.26,1264.42
2.11699,1191.13,1270.22
2.12676,1193.94,1276.02
2.13638,1199.32,1281.82
2.146,1204.18,1287.62
2.15576,1202.6,1293.42
2.16533,1207.15,1299.22
2.17505,1212.35,1305.02
2.18467,1215.56,1310.82
2.19443,1215.21,1316.62
2.204,1209.44,1322.42
2.21372,1218.82,1328.22
2.22334,1226.34,1334.02
2.23306,1233.18,1339.82
2.24268,1241,1345.62
2.25229,1247.67,1351.42
2.26211,1250.69,1357.22
2.27158,1253.84,1363.02
2.2814,1260.26,1368.82
2.29097,1264.93,1374.62
2.30073,1270.33,1380.42
2.3103,1272.3,1386.22
2.32007,1277.41,1392.02
2.32974,1281.1,1397.82
2.33936,1281.09,1403.62
2.34907,1284.58,1409.42
2.35864,1288.36,1415.22
2.36846,1288.99,1421.02
2.37793,1292.37,1426.82
2.38774,1295.53,1432.62
2.39736,1297.72,1438.42
2.40703,1300.63,1444.22
2.4167,1303.32,1450.02
2.42637,1302.65,1455.82
2.43608,1304.98,1461.62
2.44565,1307.68,1467.42
2.45542,1305.36,1473.22
2.46499,1296.53,1479.02
2.47471,1302.38,1484.82
2.48433,1303.45,1490.62
2.49409,1298.88,1496.42
2.50366,1259.84,1502.22
2.51338,1266.01,1508.02
2.52305,1269.98,1513.82
2.53271,1271.87,1519.62
2.54238,1257.85,1525.42
2.55195,1256.94,1531.22
2.56177,1263.44,1537.02
2.57129,1267.88,1542.82
2.5811,1269,1548.62
2.59063,1255.23,1554.42
2.60044,1259.4,1560.22
2.60996,1235.26,1566.02
2.61973,1241.36,1571.82
2.62939,1245.54,1577.62
2.63896,1101.28,1583.42
2.64878,1117.97,1589.22
2.6583,1132.63,1595.02
2.66807,1145.75,1600.82
2.67764,1157.06,1606.62
2.6874,1151.76,1612.42
2.69702,1159.33,1618.22
2.70669,1166.85,1624.02
2.71641,1173.87,1629.82
2.72603,1180.9,1635.62
2.73574,1186.91,1641.42
2.74526,1191.48,1647.22
2.75508,1194.81,1653.02
2.76465,1200.17,1658.82
2.77441,1205.4,1664.62
2.78398,1210.15,1670.42
2.79375,1213.78,1676.22
2.80337,1213.76,1682.02
2.81304,1215.61,1687.82
2.82271,1216.17,1693.62
2.83237,1214.49,1699.42
2.84204,1209.58,1705.22
2.85161,1210.65,1711.02
2.86143,1213.34,1716.82
2.87095,1215.13,1722.62
2.88076,1209.98,1728.42
2.89033,1204.3,1734.22
2.8978,1203.08,1738.72