Folder: Concrete-Toolchanger/Data/Thesis_Samples_Data/Flexural_Rebar_1

Note: README.md
# Concrete-Toolchanger
My senior thesis project from Princeton consisted of developing a multi-material concrete 3D-printer.

Using an E3D TOolchanger as the base motion system, custom concrete and silicone extruders were developed to be compatible with the toolchanging system.
A system for reliably priming the polymer Hemera extruders was also developed. The mechanics and electronics were controlled using a Duet board and RRF3,
which allowed for all of the toolchanging procedures and material interactions to be controlled by macros. Additionally, rather than using a traditional
slicer, FullControlGCode was used to create parametric toolpaths tailored to each type of extruder. Together, silicone and polymers were combined with
cement and mortar to create new concrete multi-materials with augmented material properties.

Check out the full thesis PDF for more details!

File: Flexural_Rebar_1.csv
"File Path: C:\Users\Lab User\Desktop\Will\Thesis Tests\Test Run 1 04-8-22 21 16 55 PM\DAQ- Crosshead, … - (Timed).csv   ",,
Test: MTS EM Flexure (3-Point Bend) - Will 2,,
Test Run: Test Run 1,,
Date: 4/8/2022 8:55:58 PM,,
,,
,,
Crosshead ,Load ,Time
mm,N,sec
9.77E-05,2.81412,0.119
0.006884766,19.1549,4.119
0.01352539,34.421,8.119
0.0202148,53.9086,12.119
0.0268555,75.8304,16.119
0.0335449,102.022,20.119
0.0402344,132.366,24.119
0.0468262,173.272,28.119
0.0535156,228.433,32.119
0.0602051,288.823,36.119
0.0668945,355.196,40.119
0.0735352,404.02,44.119
0.0801758,471.945,48.119
0.0868652,540.904,52.119
0.0935547,600.18,56.119
0.100195,643.414,60.119
0.106885,484.703,64.119
0.113477,484.822,68.119
0.120166,476.919,72.119
0.126855,492.158,76.119
0.133496,522.428,80.119
0.140234,550.471,84.119
0.146826,588.08,88.119
0.153516,622.15,92.119
0.160205,663.038,96.119
0.166846,704.057,100.119
0.173535,734.375,104.119
0.180176,776.076,108.119
0.186865,777.436,112.119
0.193555,804.201,116.119
0.200195,836.391,120.119
0.206836,867.3,124.119
0.213477,903.542,128.119
0.220215,938.662,132.119
0.226855,971.76,136.119
0.233545,972.61,140.119
0.240186,996.103,144.119
0.246826,978.98,148.119
0.253516,1016.07,152.119
0.260205,1032.91,156.119
0.266846,1060.09,160.119
0.273535,1082.99,164.119
0.280176,1102.74,168.119
0.286816,1129.41,172.119
0.293555,1155.01,176.119
0.300195,1179.35,180.119
0.306885,1002.95,184.119
0.313525,1015.81,188.119
0.320166,1039.79,192.119
0.326855,1068.75,196.119
0.333545,1098.41,200.119
0.340234,1128.18,204.119
0.346826,1157.13,208.119
0.353516,1182.84,212.119
0.360205,1204.7,216.119
0.366846,1223.77,220.119
0.373584,1243.75,224.119
0.380176,1261.16,228.119
0.386865,1275.36,232.119
0.393555,1279.18,236.119
0.400195,1286.81,240.119
0.406885,1268.01,244.119
0.413477,1271.91,248.119
0.420215,1290.45,252.119
0.426855,1306.49,256.119
0.433545,1286.55,260.119
0.440186,1305.92,264.119
0.446826,1325.29,268.119
0.453516,1303.97,272.119
0.460205,1323.89,276.119
0.466895,1344.68,280.119
0.473535,1365.41,284.119
0.480176,1385.3,288.119
0.486816,1402.49,292.119
0.493506,1422.47,296.119
0.500195,1441.72,300.119
0.506885,1459.07,304.119
0.513525,1333.62,308.119
0.520166,1355.57,312.119
0.526855,1377.94,316.119
0.533545,1399.78,320.119
0.540234,1397.72,324.119
0.546826,1416.01,328.119
0.553516,1435.13,332.119
0.560205,1442.93,336.119
0.566846,1458.42,340.119
0.573535,1475.35,344.119
0.580176,1489.85,348.119
0.586865,1502.86,352.119
0.593506,1163.19,356.119
0.600195,1179.42,360.119
0.606885,1198.47,364.119
0.613477,1217.5,368.119
0.620215,1235.81,372.119
0.626855,1253.77,376.119
0.633545,1270.38,380.119
0.640234,1286.22,384.119
0.646826,1300.27,388.119
0.653516,1314.38,392.119
0.660205,1324.79,396.119
0.666895,1337.64,400.119
0.673535,1351.8,404.119
0.680176,1362.78,408.119
0.686816,1374.67,412.119
0.693555,1381.74,416.119
0.700195,1391.11,420.119
0.706885,1399.94,424.119
0.713477,1399.77,428.119
0.720166,1405.83,432.119
0.726855,1409.54,436.119
0.733545,1419.52,440.119
0.740234,1430.74,444.119
0.746826,1441.9,448.119
0.753516,1452.86,452.119
0.760205,1462.61,456.119
0.766846,1471.62,460.119
0.773584,1464.04,464.119
0.780176,1471.26,468.119
0.786865,1476.35,472.119
0.793506,1484.54,476.119
0.800195,1492.8,480.119
0.806885,1503.76,484.119
0.813525,1514.67,488.119
0.820166,1525.16,492.119
0.826904,1535.63,496.119
0.833545,1546.24,500.119
0.840234,1556.45,504.119
0.846826,1565.71,508.119
0.853516,1575,512.119
0.860205,1583.86,516.119
0.866895,1592.03,520.119
0.873535,1599.98,524.119
0.880176,1608.5,528.119
0.886816,1617.25,532.119
0.893555,1620.7,536.119
0.900195,1629.17,540.119
0.906885,1637.36,544.119
0.913477,1644.25,548.119
0.920215,1649.19,552.119
0.926855,1655.85,556.119
0.933545,1662.96,560.119
0.9402344,1670.21,564.119
0.946826,1677.07,568.119
0.953516,1683.56,572.119
0.9602051,1689.7,576.119
0.966846,1695.9,580.119
0.973584,1702.32,584.119
0.980176,1707.92,588.119
0.986865,1712.96,592.119
0.993555,1718.72,596.119
1.0002,1723.97,600.119
1.00688,1723.34,604.119
1.01348,1727.98,608.119
1.02017,1731.28,612.119
1.02686,1730.27,616.119
1.03354,1734.22,620.119
1.04019,1738.92,624.119
1.04683,1741.61,628.119
1.05352,1744.98,632.119
1.06021,1747.93,636.119
1.06685,1750.86,640.119
1.07354,1751.54,644.119
1.08018,1753.05,648.119
1.08682,1755.08,652.119
1.09355,1755.92,656.119
1.1002,1748.89,660.119
1.10688,1745.44,664.119
1.11353,1732.82,668.119
1.12017,1717.66,672.119
1.12686,1015.07,676.119
1.13354,1018.88,680.119
1.14023,1027.91,684.119
1.14683,1037.29,688.119
1.15352,1046.9,692.119
1.16021,1055.94,696.119
1.16685,1064.95,700.119
1.17354,1073.33,704.119
1.18018,1081.34,708.119
1.18687,1088.52,712.119
1.19351,1095.34,716.119
1.2002,1102.61,720.119
1.20684,1109.55,724.119
1.21348,1116.17,728.119
1.22017,1122.58,732.119
1.22686,1129.13,736.119
1.23354,1134.92,740.119
1.24023,1140.66,744.119
1.24683,1145.51,748.119
1.25352,1150.67,752.119
1.26021,1155.69,756.119
1.26689,1160.49,760.119
1.27354,1165.27,764.119
1.28018,1169.34,768.119
1.28682,1173.6,772.119
1.29355,1177.82,776.119
1.30024,1181.83,780.119
1.30688,1186.01,784.119
1.31348,1189.98,788.119
1.32017,1194.26,792.119
1.32686,1197.85,796.119
1.33354,1201.93,800.119
1.34023,1205.45,804.119
1.34683,1208.54,808.119
1.35352,1212.08,812.119
1.36021,1216.17,816.119
1.36685,1220.07,820.119
1.37354,1224.08,824.119
1.38018,1228.16,828.119
1.38687,1231.91,832.119
1.39351,1235.78,836.119
1.4002,1239.73,840.119
1.40688,1243.09,844.119
1.41348,1246.29,848.119
1.42017,1249.98,852.119
1.42686,1253.45,856.119
1.43354,1253.27,860.119
1.44019,1255.06,864.119
1.44683,1255.59,868.119
1.45352,1256.46,872.119
1.46021,1257.11,876.119
1.46689,1257.73,880.119
1.47354,1257.07,884.119
1.48018,1257.79,888.119
1.48682,1259.22,892.119
1.49355,1261.05,896.119
1.5002,1263.2,900.119
1.50688,1264.97,904.119
1.51353,1266.11,908.119
1.52021,1267.99,912.119
1.52686,1269.74,916.119
1.53354,1271.66,920.119
1.54023,1273.45,924.119
1.54683,1274.91,928.119
1.55352,1276.93,932.119
1.56021,1278.29,936.119
1.56685,1279.94,940.119
1.57354,1281.32,944.119
1.58018,1282.17,948.119
1.58687,1283.3,952.119
1.59355,1283.33,956.119
1.6002,1284.46,960.119
1.60688,1286.03,964.119
1.61353,1287.81,968.119
1.62021,1289.22,972.119
1.62686,1290.4,976.119
1.63354,1291.81,980.119
1.64019,1292.64,984.119
1.64683,1293.7,988.119
1.65352,1294.91,992.119
1.66021,1295.55,996.119
1.66689,1296.13,1000.12
1.67354,1296.45,1004.12
1.68018,1296.36,1008.12
1.68682,1297.21,1012.12
1.69355,1297.78,1016.12
1.7002,1298.64,1020.12
1.70688,1299.35,1024.12
1.71353,1298.87,1028.12
1.72017,1294.76,1032.12
1.72686,1292.72,1036.12
1.73354,1292.7,1040.12
1.74023,1293.15,1044.12
1.74683,1276.45,1048.12
1.75352,1273.49,1052.12
1.76021,1272.98,1056.12
1.76685,1274.19,1060.12
1.77354,1275.48,1064.12
1.78018,1276.74,1068.12
1.78687,1278.5,1072.12
1.79351,1279.84,1076.12
1.80024,1281.5,1080.12
1.80688,1278.38,1084.12
1.81348,1274.88,1088.12
1.82021,1274.26,1092.12
1.82686,1273.16,1096.12
1.83354,1273.44,1100.12
1.84019,1274,1104.12
1.84683,1274.41,1108.12
1.85352,1275.58,1112.12
1.86021,1276.61,1116.12
1.86685,1278.06,1120.12
1.87354,1277.8,1124.12
1.88018,1273.35,1128.12
1.88687,1263.93,1132.12
1.89355,1260.47,1136.12
1.9002,1261.06,1140.12
1.90688,1262.48,1144.12
1.91348,1263.71,1148.12
1.92021,1265.25,1152.12
1.92686,1266.58,1156.12
1.93354,1268.13,1160.12
1.94023,1268.75,1164.12
1.94683,1269.94,1168.12
1.95352,1271.17,1172.12
1.96021,1272.73,1176.12
1.96685,1274.26,1180.12
1.97354,1275.86,1184.12
1.98018,1277.62,1188.12
1.98687,1279,1192.12
1.99351,1280.53,1196.12
1.99771,1281.31,1198.7