Folder: Concrete-Toolchanger/Data/Thesis_Samples_Data/Flexural_Cast_2

Note: README.md
# Concrete-Toolchanger
My senior thesis project from Princeton consisted of developing a multi-material concrete 3D-printer.

Using an E3D TOolchanger as the base motion system, custom concrete and silicone extruders were developed to be compatible with the toolchanging system.
A system for reliably priming the polymer Hemera extruders was also developed. The mechanics and electronics were controlled using a Duet board and RRF3,
which allowed for all of the toolchanging procedures and material interactions to be controlled by macros. Additionally, rather than using a traditional
slicer, FullControlGCode was used to create parametric toolpaths tailored to each type of extruder. Together, silicone and polymers were combined with
cement and mortar to create new concrete multi-materials with augmented material properties.

Check out the full thesis PDF for more details!

File: DAQ- Crosshead, … - (Timed).txt
File Path: C:\Users\Lab User\Desktop\Will\Thesis Tests\Test Run 8 04-8-22 15 20 16 PM\DAQ- Crosshead, … - (Timed).txt
Test: MTS EM Flexure (3-Point Bend) - Will 1
Test Run: Test Run 8
Date: 4/8/2022 3:18:15 PM

Crosshead 	Load 	Time
mm	N	sec
0	0.720948	0.02
0.000195312	0.864438	0.28
0.000683594	1.44669	0.54
0.00131836	2.11678	0.8
0.0019043	3.16933	1.06
0.00244141	3.7748	1.32
0.00302734	4.72459	1.58
0.00366211	5.58393	1.84
0.00424805	6.50786	2.1
0.00478516	7.33729	2.36
0.00532227	7.93298	2.62
0.00585938	8.78963	2.88
0.00634766	9.29445	3.14
0.00683594	10.0728	3.4
0.00732422	10.7279	3.66
0.0078125	11.4394	3.92
0.00830078	12.0918	4.18
0.00878906	12.6583	4.44
0.00932617	13.6424	4.7
0.00986328	14.3633	4.96
0.0104004	15.2746	5.22
0.0109375	16.0326	5.48
0.0114746	16.9658	5.74
0.0120117	17.8643	6
0.0125488	18.5588	6.26
0.0130371	19.5364	6.52
0.0135254	20.2543	6.78
0.0140137	21.1876	7.04
0.014502	22.0205	7.3
0.0149902	22.9082	7.56
0.0155273	23.9138	7.82
0.0160645	24.7787	8.08
0.0166016	25.9842	8.34
0.0171875	26.9614	8.6
0.0177246	28.1769	8.86
0.0182617	29.2826	9.12
0.0187988	30.3293	9.38
0.0193359	31.5199	9.64
0.019873	32.4293	9.9
0.0203613	33.6383	10.16
0.0208496	34.6581	10.42
0.0213379	35.6563	10.68
0.0218262	36.8602	10.94
0.0223633	37.9634	11.2
0.0228516	39.3147	11.46
0.0234375	40.4093	11.72
0.0239746	41.9222	11.98
0.0245117	43.2027	12.24
0.0250488	44.4842	12.5
0.0255859	45.7928	12.76
0.026123	46.9603	13.02
0.0266113	48.3665	13.28
0.0270996	49.421	13.54
0.0275879	50.7804	13.8
0.0280273	51.9967	14.06
0.0285645	53.2889	14.32
0.0290527	54.6589	14.58
0.0295898	56.0209	14.84
0.0301758	57.7769	15.1
0.0307129	59.1911	15.36
0.0312988	60.9581	15.62
0.0318359	62.431	15.88
0.0323242	63.9375	16.14
0.0328613	65.6086	16.4
0.0333496	66.8256	16.66
0.0338867	67.6456	16.92
0.0343262	68.7912	17.18
0.0348145	70.3005	17.44
0.0353516	71.8423	17.7
0.0358398	73.4019	17.96
0.036377	75.2445	18.22
0.0369629	76.9544	18.48
0.0375488	78.8169	18.74
0.0380859	80.3181	19
0.0385742	82.0947	19.26
0.0391113	83.8056	19.52
0.0396484	85.5982	19.78
0.0401367	87.2271	20.04
0.040625	88.797	20.3
0.0411133	90.5828	20.56
0.0416016	92.107	20.82
0.0420898	93.9033	21.08
0.0425781	95.717	21.34
0.0431152	97.7402	21.6
0.0437012	99.8787	21.86
0.0442383	101.87	22.12
0.0447754	104.115	22.38
0.0453125	106.188	22.64
0.0458496	108.357	22.9
0.0463379	110.41	23.16
0.0468262	112.55	23.42
0.0473145	114.821	23.68
0.0478027	116.873	23.94
0.0483398	119.348	24.2
0.0488281	121.528	24.46
0.0493652	124.37	24.72
0.0499023	127.097	24.98
0.0504883	130.205	25.24
0.0510254	133.244	25.5
0.0515625	136.417	25.76
0.0520996	139.724	26.02
0.0526367	142.7	26.28
0.053125	145.939	26.54
0.0536133	149.032	26.8
0.0541016	152.146	27.06
0.0545898	155.392	27.32
0.0550781	158.783	27.58
0.0556152	162.572	27.84
0.0561523	166.304	28.1
0.0566895	170.74	28.36
0.0572266	175.203	28.62
0.0578125	179.557	28.88
0.0583496	183.897	29.14
0.0588379	188.236	29.4
0.059375	192.668	29.66
0.0598633	196.807	29.92
0.0604004	201.2	30.18
0.0608887	205.309	30.44
0.061377	209.653	30.7
0.0618652	214.085	30.96
0.0623535	218.579	31.22
0.0628906	223.827	31.48
0.0634277	228.722	31.74
0.0640137	234.565	32
0.0645508	239.27	32.26
0.0650879	244.37	32.52
0.065625	249.457	32.78
0.0661621	254.51	33.04
0.0666504	259.337	33.3
0.0671387	263.824	33.56
0.067627	268.618	33.82
0.0681641	273.246	34.08
0.0686523	277.96	34.34
0.0691406	283.066	34.6
0.0696777	288.765	34.86
0.0702637	294.335	35.12
0.0708008	299.517	35.38
0.0713379	305.265	35.64
0.071875	310.231	35.9
0.0723633	315.438	36.16
0.0729004	320.345	36.42
0.0733887	325.121	36.68
0.073877	330.526	36.94
0.0743652	335.329	37.2
0.0748535	340.057	37.46
0.0753418	344.807	37.72
0.0758301	310.876	37.98
0.0763672	311.95	38.24
0.0769531	316.101	38.5
0.0774902	321.489	38.76
0.0780273	326.77	39.02
0.0785645	332.236	39.28
0.0791016	336.823	39.54
0.0795898	341.95	39.8
0.080127	346.843	40.06
0.0806152	351.437	40.32
0.0811035	356.004	40.58
0.0815918	360.15	40.84
0.0820801	359.396	41.1
0.0826172	359.659	41.36
0.0832031	361.818	41.62
0.0837402	365.191	41.88
0.0843262	368.687	42.14
0.0848633	371.341	42.4
0.0854004	373.906	42.66
0.0858887	377.458	42.92
0.0864258	380.596	43.18
0.0869141	384.09	43.44
0.0874023	386.693	43.7
0.0878906	389.598	43.96
0.0883789	391.252	44.22
0.0888672	393.347	44.48
0.0894043	395.211	44.74
0.0899414	396.139	45
0.0905273	396.663	45.26
0.0910645	397.463	45.52
0.0916016	396.876	45.78
0.0921387	396.393	46.04
0.0926758	395.711	46.3
0.0931641	395.4	46.56
0.0936523	395.195	46.82
0.0941406	394.709	47.08
0.0946289	392.302	47.34
0.0951172	387.479	47.6
0.0956543	382.736	47.86
0.0961914	377.474	48.12
0.0967285	369.775	48.38
0.0973145	342.365	48.64
0.0978516	319.828	48.9
0.0983887	284.596	49.16
0.0989258	253.86	49.42
0.0994141	231.001	49.68
0.0999512	216.512	49.94
0.100488	176.211	50.2
0.100977	165.3	50.46
0.101416	162.298	50.72
0.101904	160.289	50.98
0.102441	158.863	51.24
0.102979	157.78	51.5
0.103516	156.825	51.76
0.104102	156.366	52.02
0.104639	156.073	52.28
0.105176	155.931	52.54
0.105664	155.205	52.8
0.106201	155.085	53.06
0.106689	154.704	53.32
0.107178	154.586	53.58
0.107666	154.27	53.84
0.108154	153.718	54.1
0.108643	153.2	54.36
0.109131	152.69	54.62
0.109668	152.238	54.88
0.110205	151.247	55.14
0.110791	150.333	55.4
0.111328	149.576	55.66
0.111865	148.24	55.92
0.112354	145.91	56.18
0.112891	137.566	56.44
0.113379	128.843	56.7
0.113867	123.8	56.96
0.114355	120.796	57.22
0.114844	118.724	57.48
0.115332	117.084	57.74
0.115869	115.347	58
0.116406	113.966	58.26
0.116992	112.68	58.52
0.117529	111.118	58.78
0.118115	109.815	59.04
0.118652	108.475	59.3
0.119189	106.956	59.56
0.119678	105.651	59.82
0.120166	104.443	60.08
0.120703	103.463	60.34
0.121191	102.103	60.6
0.121631	101.116	60.86
0.122168	99.9713	61.12
0.122705	98.7607	61.38
0.123242	97.3435	61.64
0.123828	90.0113	61.9
0.124365	85.114	62.16
0.124902	81.7378	62.42
0.125391	79.4145	62.68
0.125928	77.3	62.94
0.126465	75.122	63.2
0.126953	73.193	63.46
0.127441	71.4677	63.72
0.12793	69.8835	63.98
0.128418	68.5327	64.24
0.128906	67.4551	64.5
0.129443	66.2632	64.76
0.130029	65.3149	65.02
0.130566	63.165	65.28
0.131152	61.1671	65.54
0.131689	59.9213	65.8
0.132178	58.3722	66.06
0.132715	57.3796	66.32
0.133203	56.1699	66.58
0.133691	55.2768	66.84
0.134229	54.1368	67.1
0.134668	53.3501	67.36
0.135156	52.5418	67.62
0.135693	51.9371	67.88
0.13623	51.3973	68.14
0.136768	50.1211	68.4
0.137354	49.3734	68.66
0.137891	48.4926	68.92
0.138428	47.6646	69.18
0.138916	47.0477	69.44
0.139453	46.2563	69.7
0.13999	45.7501	69.96
0.140479	45.1127	70.22
0.140967	44.9586	70.48
0.141455	44.3999	70.74
0.141943	44.2784	71
0.142432	43.9993	71.26
0.142969	43.7054	71.52
0.143506	43.6063	71.78
0.144092	43.1881	72.04
0.144629	43.137	72.3
0.145166	42.841	72.56
0.145654	42.6626	72.82
0.146191	42.4373	73.08
0.14668	42.1603	73.34
0.147168	42.1005	73.6
0.147656	41.7469	73.86
0.148145	41.7189	74.12
0.148633	41.3811	74.38
0.14917	41.3148	74.64
0.149707	41.1844	74.9
0.150293	40.9771	75.16
0.15083	40.9108	75.42
0.151367	40.6133	75.68
0.151904	40.5447	75.94
0.152441	40.3299	76.2
0.15293	40.2248	76.46
0.153467	39.9377	76.72
0.153564	39.8653	76.779

File: Flexural_Cast_2.csv
"File Path: C:\Users\Lab User\Desktop\Will\Thesis Tests\Test Run 8 04-8-22 15 20 16 PM\DAQ- Crosshead, … - (Timed).txt   ",,
Test: MTS EM Flexure (3-Point Bend) - Will 1,,
Test Run: Test Run 8,,
Date: 4/8/2022 3:18:15 PM,,
,,
,,
Crosshead ,Load ,Time
mm,N,sec
0,0.720948,0.02
0.000195312,0.864438,0.28
0.000683594,1.44669,0.54
0.001318359,2.11678,0.8
0.001904297,3.16933,1.06
0.002441406,3.7748,1.32
0.003027344,4.72459,1.58
0.003662109,5.58393,1.84
0.004248047,6.50786,2.1
0.004785156,7.33729,2.36
0.005322266,7.93298,2.62
0.005859375,8.78963,2.88
0.006347656,9.29445,3.14
0.006835938,10.0728,3.4
0.007324219,10.7279,3.66
0.0078125,11.4394,3.92
0.008300782,12.0918,4.18
0.008789062,12.6583,4.44
0.009326171,13.6424,4.7
0.009863281,14.3633,4.96
0.01040039,15.2746,5.22
0.0109375,16.0326,5.48
0.0114746,16.9658,5.74
0.0120117,17.8643,6
0.0125488,18.5588,6.26
0.0130371,19.5364,6.52
0.01352539,20.2543,6.78
0.0140137,21.1876,7.04
0.014502,22.0205,7.3
0.0149902,22.9082,7.56
0.0155273,23.9138,7.82
0.0160645,24.7787,8.08
0.0166016,25.9842,8.34
0.0171875,26.9614,8.6
0.0177246,28.1769,8.86
0.0182617,29.2826,9.12
0.0187988,30.3293,9.38
0.0193359,31.5199,9.64
0.019873,32.4293,9.9
0.0203613,33.6383,10.16
0.0208496,34.6581,10.42
0.02133789,35.6563,10.68
0.0218262,36.8602,10.94
0.0223633,37.9634,11.2
0.0228516,39.3147,11.46
0.0234375,40.4093,11.72
0.02397461,41.9222,11.98
0.0245117,43.2027,12.24
0.0250488,44.4842,12.5
0.0255859,45.7928,12.76
0.026123,46.9603,13.02
0.0266113,48.3665,13.28
0.02709961,49.421,13.54
0.02758789,50.7804,13.8
0.0280273,51.9967,14.06
0.0285645,53.2889,14.32
0.0290527,54.6589,14.58
0.0295898,56.0209,14.84
0.0301758,57.7769,15.1
0.03071289,59.1911,15.36
0.0312988,60.9581,15.62
0.0318359,62.431,15.88
0.03232422,63.9375,16.14
0.0328613,65.6086,16.4
0.03334961,66.8256,16.66
0.0338867,67.6456,16.92
0.0343262,68.7912,17.18
0.0348145,70.3005,17.44
0.0353516,71.8423,17.7
0.0358398,73.4019,17.96
0.036377,75.2445,18.22
0.0369629,76.9544,18.48
0.0375488,78.8169,18.74
0.0380859,80.3181,19
0.0385742,82.0947,19.26
0.0391113,83.8056,19.52
0.0396484,85.5982,19.78
0.0401367,87.2271,20.04
0.040625,88.797,20.3
0.0411133,90.5828,20.56
0.0416016,92.107,20.82
0.0420898,93.9033,21.08
0.0425781,95.717,21.34
0.0431152,97.7402,21.6
0.0437012,99.8787,21.86
0.0442383,101.87,22.12
0.0447754,104.115,22.38
0.0453125,106.188,22.64
0.0458496,108.357,22.9
0.0463379,110.41,23.16
0.0468262,112.55,23.42
0.0473145,114.821,23.68
0.0478027,116.873,23.94
0.0483398,119.348,24.2
0.0488281,121.528,24.46
0.0493652,124.37,24.72
0.0499023,127.097,24.98
0.0504883,130.205,25.24
0.0510254,133.244,25.5
0.0515625,136.417,25.76
0.0520996,139.724,26.02
0.0526367,142.7,26.28
0.053125,145.939,26.54
0.0536133,149.032,26.8
0.0541016,152.146,27.06
0.0545898,155.392,27.32
0.0550781,158.783,27.58
0.0556152,162.572,27.84
0.0561523,166.304,28.1
0.0566895,170.74,28.36
0.0572266,175.203,28.62
0.0578125,179.557,28.88
0.0583496,183.897,29.14
0.05883789,188.236,29.4
0.059375,192.668,29.66
0.05986328,196.807,29.92
0.0604004,201.2,30.18
0.0608887,205.309,30.44
0.061377,209.653,30.7
0.0618652,214.085,30.96
0.0623535,218.579,31.22
0.0628906,223.827,31.48
0.0634277,228.722,31.74
0.0640137,234.565,32
0.0645508,239.27,32.26
0.0650879,244.37,32.52
0.065625,249.457,32.78
0.0661621,254.51,33.04
0.0666504,259.337,33.3
0.0671387,263.824,33.56
0.067627,268.618,33.82
0.0681641,273.246,34.08
0.0686523,277.96,34.34
0.0691406,283.066,34.6
0.0696777,288.765,34.86
0.0702637,294.335,35.12
0.0708008,299.517,35.38
0.07133789,305.265,35.64
0.071875,310.231,35.9
0.0723633,315.438,36.16
0.0729004,320.345,36.42
0.07338867,325.121,36.68
0.073877,330.526,36.94
0.0743652,335.329,37.2
0.0748535,340.057,37.46
0.0753418,344.807,37.72
0.0758301,310.876,37.98
0.0763672,311.95,38.24
0.0769531,316.101,38.5
0.0774902,321.489,38.76
0.07802734,326.77,39.02
0.0785645,332.236,39.28
0.0791016,336.823,39.54
0.0795898,341.95,39.8
0.080127,346.843,40.06
0.0806152,351.437,40.32
0.0811035,356.004,40.58
0.0815918,360.15,40.84
0.0820801,359.396,41.1
0.0826172,359.659,41.36
0.0832031,361.818,41.62
0.0837402,365.191,41.88
0.0843262,368.687,42.14
0.0848633,371.341,42.4
0.0854004,373.906,42.66
0.0858887,377.458,42.92
0.0864258,380.596,43.18
0.0869141,384.09,43.44
0.0874023,386.693,43.7
0.0878906,389.598,43.96
0.0883789,391.252,44.22
0.0888672,393.347,44.48
0.0894043,395.211,44.74
0.0899414,396.139,45
0.0905273,396.663,45.26
0.0910645,397.463,45.52
0.0916016,396.876,45.78
0.0921387,396.393,46.04
0.0926758,395.711,46.3
0.0931641,395.4,46.56
0.0936523,395.195,46.82
0.0941406,394.709,47.08
0.0946289,392.302,47.34
0.09511719,387.479,47.6
0.0956543,382.736,47.86
0.0961914,377.474,48.12
0.0967285,369.775,48.38
0.0973145,342.365,48.64
0.09785156,319.828,48.9
0.0983887,284.596,49.16
0.0989258,253.86,49.42
0.0994141,231.001,49.68
0.0999512,216.512,49.94
0.100488,176.211,50.2
0.100977,165.3,50.46
0.101416,162.298,50.72
0.101904,160.289,50.98
0.102441,158.863,51.24
0.102979,157.78,51.5
0.103516,156.825,51.76
0.104102,156.366,52.02
0.104639,156.073,52.28
0.105176,155.931,52.54
0.105664,155.205,52.8
0.106201,155.085,53.06
0.106689,154.704,53.32
0.107178,154.586,53.58
0.107666,154.27,53.84
0.108154,153.718,54.1
0.108643,153.2,54.36
0.109131,152.69,54.62
0.109668,152.238,54.88
0.110205,151.247,55.14
0.110791,150.333,55.4
0.111328,149.576,55.66
0.111865,148.24,55.92
0.112354,145.91,56.18
0.112891,137.566,56.44
0.113379,128.843,56.7
0.113867,123.8,56.96
0.114355,120.796,57.22
0.114844,118.724,57.48
0.115332,117.084,57.74
0.115869,115.347,58
0.116406,113.966,58.26
0.116992,112.68,58.52
0.1175293,111.118,58.78
0.118115,109.815,59.04
0.118652,108.475,59.3
0.119189,106.956,59.56
0.119678,105.651,59.82
0.120166,104.443,60.08
0.120703,103.463,60.34
0.121191,102.103,60.6
0.121631,101.116,60.86
0.122168,99.9713,61.12
0.122705,98.7607,61.38
0.123242,97.3435,61.64
0.123828,90.0113,61.9
0.124365,85.114,62.16
0.124902,81.7378,62.42
0.125391,79.4145,62.68
0.125928,77.3,62.94
0.126465,75.122,63.2
0.126953,73.193,63.46
0.127441,71.4677,63.72
0.12793,69.8835,63.98
0.128418,68.5327,64.24
0.128906,67.4551,64.5
0.129443,66.2632,64.76
0.130029,65.3149,65.02
0.130566,63.165,65.28
0.131152,61.1671,65.54
0.131689,59.9213,65.8
0.132178,58.3722,66.06
0.132715,57.3796,66.32
0.133203,56.1699,66.58
0.133691,55.2768,66.84
0.134229,54.1368,67.1
0.134668,53.3501,67.36
0.135156,52.5418,67.62
0.135693,51.9371,67.88
0.13623,51.3973,68.14
0.136768,50.1211,68.4
0.137354,49.3734,68.66
0.137891,48.4926,68.92
0.138428,47.6646,69.18
0.138916,47.0477,69.44
0.139453,46.2563,69.7
0.13999,45.7501,69.96
0.140479,45.1127,70.22
0.140967,44.9586,70.48
0.141455,44.3999,70.74
0.141943,44.2784,71
0.142432,43.9993,71.26
0.142969,43.7054,71.52
0.143506,43.6063,71.78
0.144092,43.1881,72.04
0.144629,43.137,72.3
0.145166,42.841,72.56
0.145654,42.6626,72.82
0.146191,42.4373,73.08
0.14668,42.1603,73.34
0.147168,42.1005,73.6
0.147656,41.7469,73.86
0.148145,41.7189,74.12
0.148633,41.3811,74.38
0.14917,41.3148,74.64
0.149707,41.1844,74.9
0.150293,40.9771,75.16
0.15083,40.9108,75.42
0.151367,40.6133,75.68
0.1519043,40.5447,75.94
0.152441,40.3299,76.2
0.15293,40.2248,76.46
0.153467,39.9377,76.72
0.153564,39.8653,76.779