Folder: Concrete-Toolchanger/Data/Thesis_Samples_Data/Flexural_Cast_1

Note: README.md
# Concrete-Toolchanger
My senior thesis project from Princeton consisted of developing a multi-material concrete 3D-printer.

Using an E3D TOolchanger as the base motion system, custom concrete and silicone extruders were developed to be compatible with the toolchanging system.
A system for reliably priming the polymer Hemera extruders was also developed. The mechanics and electronics were controlled using a Duet board and RRF3,
which allowed for all of the toolchanging procedures and material interactions to be controlled by macros. Additionally, rather than using a traditional
slicer, FullControlGCode was used to create parametric toolpaths tailored to each type of extruder. Together, silicone and polymers were combined with
cement and mortar to create new concrete multi-materials with augmented material properties.

Check out the full thesis PDF for more details!

File: DAQ- Crosshead, … - (Timed).txt
File Path: C:\Users\Lab User\Desktop\Will\Thesis Tests\Test Run 7 04-8-22 15 16 20 PM\DAQ- Crosshead, … - (Timed).txt
Test: MTS EM Flexure (3-Point Bend) - Will 1
Test Run: Test Run 7
Date: 4/8/2022 3:13:28 PM

Crosshead 	Load 	Time
mm	N	sec
0	2.36878	0.02
0.000146484	2.47386	0.18
0.000341797	2.51786	0.34
0.000585938	2.94616	0.5
0.000927734	3.10561	0.66
0.00131836	3.69235	0.82
0.00170898	4.08953	0.98
0.00205078	4.43032	1.14
0.00244141	5.02583	1.3
0.0027832	5.38032	1.46
0.003125	6.00587	1.62
0.0034668	6.33919	1.78
0.00385742	6.84383	1.94
0.00419922	7.42459	2.1
0.00454102	7.72234	2.26
0.00483398	8.29009	2.42
0.00517578	8.61259	2.58
0.00551758	9.17816	2.74
0.00581055	9.60557	2.9
0.00615234	10.0385	3.06
0.00644531	10.666	3.22
0.00678711	10.868	3.38
0.00708008	11.5053	3.54
0.00737305	11.8983	3.7
0.00766602	12.3117	3.86
0.00800781	12.8612	4.02
0.00830078	13.2033	4.18
0.00864258	13.9365	4.34
0.00893555	14.2576	4.5
0.00927734	14.8823	4.66
0.00961914	15.3148	4.82
0.00996094	15.8335	4.98
0.0103027	16.555	5.14
0.0106445	16.9372	5.3
0.0109863	17.519	5.46
0.0113281	17.9789	5.62
0.0116211	18.4124	5.78
0.0119629	19.0509	5.94
0.0123047	19.4513	6.1
0.0125977	20.1227	6.26
0.0128906	20.4774	6.42
0.0132324	20.9869	6.58
0.0135254	21.5209	6.74
0.0138184	21.9612	6.9
0.0141113	22.6023	7.06
0.0144043	22.9125	7.22
0.0146973	23.5368	7.38
0.0149902	23.8957	7.54
0.015332	24.4671	7.7
0.015625	25.0003	7.86
0.0159668	25.4433	8.02
0.0163086	26.247	8.18
0.0166504	26.6175	8.34
0.0169922	27.3184	8.5
0.0172852	27.878	8.66
0.017627	28.3256	8.82
0.0179688	29.0612	8.98
0.0183105	29.4265	9.14
0.0186523	30.1514	9.3
0.0189453	30.6152	9.46
0.0192383	31.1123	9.62
0.0195312	31.6833	9.78
0.019873	32.1337	9.94
0.020166	32.968	10.1
0.020459	33.3415	10.26
0.0208008	33.9541	10.42
0.0210449	34.497	10.58
0.0213867	35.0313	10.74
0.0216797	35.7485	10.9
0.0219727	36.175	11.06
0.0223145	36.9121	11.22
0.0226562	37.557	11.38
0.022998	38.1373	11.54
0.0233398	38.976	11.7
0.0236816	39.5074	11.86
0.0240234	40.4334	12.02
0.0244141	40.896	12.18
0.0247559	41.8019	12.34
0.0250488	42.3032	12.5
0.0253906	42.8316	12.66
0.0256836	43.6379	12.82
0.0260254	44.0868	12.98
0.0263672	44.8942	13.14
0.0266602	45.4489	13.3
0.0269531	46.0648	13.46
0.0272461	46.7784	13.62
0.0275391	47.2168	13.78
0.0278809	48.0666	13.94
0.0281738	48.6122	14.1
0.0284668	49.2764	14.26
0.0287598	50.0271	14.42
0.0291016	50.6527	14.58
0.0294434	51.4857	14.74
0.0297852	52.1292	14.9
0.030127	53.0539	15.06
0.0304687	53.7776	15.22
0.0308105	54.5847	15.38
0.0311035	55.3582	15.54
0.0314453	55.9052	15.7
0.0317871	56.7474	15.86
0.0321289	57.4381	16.02
0.0324219	58.1695	16.18
0.0327148	58.8698	16.34
0.0330566	59.4421	16.5
0.0333496	60.2935	16.66
0.0336426	61.0046	16.82
0.0339355	61.6715	16.98
0.0342285	62.352	17.14
0.0345215	63.0242	17.3
0.0348145	63.8892	17.46
0.0351562	64.3717	17.62
0.035498	65.4183	17.78
0.035791	66.1044	17.94
0.0361328	66.9496	18.1
0.0364746	67.7982	18.26
0.0368164	68.6692	18.42
0.0371582	69.617	18.58
0.0375	70.4877	18.74
0.0378418	71.311	18.9
0.0381836	72.2437	19.06
0.0384766	73.0491	19.22
0.0388184	73.8515	19.38
0.0391113	74.6561	19.54
0.0394531	75.6741	19.7
0.0397949	76.4055	19.86
0.0400879	77.2235	20.02
0.0403809	78.1507	20.18
0.0406738	78.9302	20.34
0.0410156	79.835	20.5
0.0412598	80.4758	20.66
0.0416016	81.2253	20.82
0.0418945	82.3385	20.98
0.0421875	82.9663	21.14
0.0425293	84.123	21.3
0.0428711	85.087	21.46
0.0432129	86.168	21.62
0.0436035	87.256	21.78
0.0439453	88.0877	21.94
0.0442383	89.2181	22.1
0.0445801	89.9129	22.26
0.0449219	91.0375	22.42
0.0452148	91.8687	22.58
0.0455566	92.8493	22.74
0.0458984	93.8944	22.9
0.0461914	94.8077	23.06
0.0464844	95.8537	23.22
0.0468262	96.7073	23.38
0.0471191	97.611	23.54
0.0474121	98.5146	23.7
0.0477051	99.386	23.86
0.047998	100.478	24.02
0.048291	101.281	24.18
0.048584	102.401	24.34
0.0489258	103.339	24.5
0.0492676	104.395	24.66
0.0495605	105.569	24.82
0.0499023	106.58	24.98
0.0502441	107.807	25.14
0.0505859	108.996	25.3
0.0509277	109.984	25.46
0.0512695	111.214	25.62
0.0515625	112.225	25.78
0.0519043	113.56	25.94
0.0522461	114.545	26.1
0.0525391	115.835	26.26
0.052832	116.894	26.42
0.0531738	117.875	26.58
0.0534668	119.252	26.74
0.0538086	120.362	26.9
0.0540527	121.558	27.06
0.0543457	122.644	27.22
0.0546875	123.967	27.38
0.0549805	125.307	27.54
0.0552734	126.486	27.7
0.0556152	128.176	27.86
0.055957	129.523	28.02
0.0562988	130.829	28.18
0.0566406	132.647	28.34
0.0570313	134.308	28.5
0.0573242	135.964	28.66
0.057666	137.592	28.82
0.0580078	139.156	28.98
0.0583496	140.893	29.14
0.0586914	142.506	29.3
0.0589844	144.168	29.46
0.0592773	145.808	29.62
0.0596191	147.637	29.78
0.0599121	149.182	29.94
0.0602051	150.813	30.1
0.0605469	152.539	30.26
0.0608398	154.204	30.42
0.0611328	155.849	30.58
0.0614258	157.752	30.74
0.0617187	159.313	30.9
0.0620605	161.277	31.06
0.0623535	163.115	31.22
0.0626953	164.973	31.38
0.0630371	167.096	31.54
0.0633789	169.061	31.7
0.0637207	171.357	31.86
0.0640625	173.016	32.02
0.0644043	175.326	32.18
0.0647461	176.983	32.34
0.0650391	178.74	32.5
0.0653809	180.457	32.66
0.0656738	182.281	32.82
0.0660156	183.873	32.98
0.0663086	184.688	33.14
0.0666504	185.078	33.3
0.0669434	185.199	33.46
0.0672363	186.01	33.62
0.0675293	186.989	33.78
0.0678223	188.377	33.94
0.0681641	189.632	34.1
0.068457	190.31	34.26
0.06875	191.669	34.42
0.0690918	192.778	34.58
0.0693848	193.98	34.74
0.0697266	195.382	34.9
0.0701172	195.373	35.06
0.070459	195.289	35.22
0.0708008	195.654	35.38
0.0711426	195.267	35.54
0.0714355	192.576	35.7
0.0717773	189.34	35.86
0.0721191	186.669	36.02
0.0724121	184.887	36.18
0.0727539	184.267	36.34
0.0730957	183.057	36.5
0.0733887	181.754	36.66
0.0736816	178.815	36.82
0.0739746	177.476	36.98
0.0742676	176.873	37.14
0.0745606	177.296	37.3
0.0749023	177.75	37.46
0.0751953	178.678	37.62
0.0754883	179.478	37.78
0.0758301	180.079	37.94
0.0761719	180.532	38.1
0.0765137	180.869	38.26
0.0768555	180.296	38.42
0.0771973	180.1	38.58
0.0775391	180.165	38.74
0.0778809	180.089	38.9
0.0781738	180.353	39.06
0.0785156	180.488	39.22
0.0788086	180.122	39.38
0.0791504	180.184	39.54
0.0794434	180.231	39.7
0.0797363	180.545	39.86
0.0800293	180.811	40.02
0.0803711	181.471	40.18
0.0806641	182.364	40.34
0.080957	182.945	40.5
0.08125	183.407	40.66
0.081543	182.928	40.82
0.0818359	182.442	40.98
0.0821289	181.309	41.14
0.0824707	176.952	41.3
0.0828125	172.325	41.46
0.0831543	169.116	41.62
0.0835449	167.352	41.78
0.0838379	165.299	41.94
0.0841797	164.187	42.1
0.0845215	163.586	42.26
0.0848633	162.478	42.42
0.0852051	162.331	42.58
0.085498	161.467	42.74
0.0858398	160.182	42.9
0.0861328	159.062	43.06
0.0864746	158.087	43.22
0.0867676	157.427	43.38
0.0870605	156.335	43.54
0.0873535	155.547	43.7
0.0876953	154.3	43.86
0.0879883	151.964	44.02
0.0882813	149.818	44.18
0.0885742	147.68	44.34
0.088916	146.468	44.5
0.089209	145.074	44.66
0.0895508	144.159	44.82
0.0899414	142.888	44.98
0.0902832	140.1	45.14
0.090625	137.574	45.3
0.0909668	134.517	45.46
0.0913086	132.15	45.62
0.0916504	129.764	45.78
0.0919434	127.137	45.94
0.0922363	123.218	46.1
0.0924316	19.1399	46.181

File: Flexural_Cast_1.csv
"File Path: C:\Users\Lab User\Desktop\Will\Thesis Tests\Test Run 7 04-8-22 15 16 20 PM\DAQ- Crosshead, … - (Timed).txt   ",,
Test: MTS EM Flexure (3-Point Bend) - Will 1,,
Test Run: Test Run 7,,
Date: 4/8/2022 3:13:28 PM,,
,,
,,
Crosshead ,Load ,Time
mm,N,sec
0,2.36878,0.02
0.000146484,2.47386,0.18
0.000341797,2.51786,0.34
0.000585938,2.94616,0.5
0.000927734,3.10561,0.66
0.001318359,3.69235,0.82
0.001708984,4.08953,0.98
0.002050781,4.43032,1.14
0.002441406,5.02583,1.3
0.002783203,5.38032,1.46
0.003125,6.00587,1.62
0.003466797,6.33919,1.78
0.003857422,6.84383,1.94
0.004199219,7.42459,2.1
0.004541016,7.72234,2.26
0.004833984,8.29009,2.42
0.005175781,8.61259,2.58
0.005517578,9.17816,2.74
0.005810547,9.60557,2.9
0.006152344,10.0385,3.06
0.006445312,10.666,3.22
0.006787109,10.868,3.38
0.007080078,11.5053,3.54
0.007373047,11.8983,3.7
0.007666015,12.3117,3.86
0.008007813,12.8612,4.02
0.008300782,13.2033,4.18
0.008642578,13.9365,4.34
0.008935547,14.2576,4.5
0.009277343,14.8823,4.66
0.009619141,15.3148,4.82
0.009960938,15.8335,4.98
0.0103027,16.555,5.14
0.0106445,16.9372,5.3
0.0109863,17.519,5.46
0.0113281,17.9789,5.62
0.0116211,18.4124,5.78
0.01196289,19.0509,5.94
0.0123047,19.4513,6.1
0.0125977,20.1227,6.26
0.0128906,20.4774,6.42
0.0132324,20.9869,6.58
0.01352539,21.5209,6.74
0.01381836,21.9612,6.9
0.0141113,22.6023,7.06
0.0144043,22.9125,7.22
0.0146973,23.5368,7.38
0.0149902,23.8957,7.54
0.015332,24.4671,7.7
0.015625,25.0003,7.86
0.0159668,25.4433,8.02
0.0163086,26.247,8.18
0.0166504,26.6175,8.34
0.0169922,27.3184,8.5
0.0172852,27.878,8.66
0.017627,28.3256,8.82
0.01796875,29.0612,8.98
0.0183105,29.4265,9.14
0.0186523,30.1514,9.3
0.0189453,30.6152,9.46
0.0192383,31.1123,9.62
0.01953125,31.6833,9.78
0.019873,32.1337,9.94
0.020166,32.968,10.1
0.020459,33.3415,10.26
0.02080078,33.9541,10.42
0.0210449,34.497,10.58
0.0213867,35.0313,10.74
0.0216797,35.7485,10.9
0.0219727,36.175,11.06
0.0223145,36.9121,11.22
0.02265625,37.557,11.38
0.022998,38.1373,11.54
0.0233398,38.976,11.7
0.0236816,39.5074,11.86
0.0240234,40.4334,12.02
0.0244141,40.896,12.18
0.02475586,41.8019,12.34
0.0250488,42.3032,12.5
0.0253906,42.8316,12.66
0.0256836,43.6379,12.82
0.0260254,44.0868,12.98
0.0263672,44.8942,13.14
0.0266602,45.4489,13.3
0.0269531,46.0648,13.46
0.0272461,46.7784,13.62
0.0275391,47.2168,13.78
0.02788086,48.0666,13.94
0.0281738,48.6122,14.1
0.0284668,49.2764,14.26
0.0287598,50.0271,14.42
0.0291016,50.6527,14.58
0.0294434,51.4857,14.74
0.0297852,52.1292,14.9
0.030127,53.0539,15.06
0.0304687,53.7776,15.22
0.0308105,54.5847,15.38
0.0311035,55.3582,15.54
0.0314453,55.9052,15.7
0.0317871,56.7474,15.86
0.0321289,57.4381,16.02
0.0324219,58.1695,16.18
0.0327148,58.8698,16.34
0.03305664,59.4421,16.5
0.03334961,60.2935,16.66
0.0336426,61.0046,16.82
0.0339355,61.6715,16.98
0.0342285,62.352,17.14
0.0345215,63.0242,17.3
0.0348145,63.8892,17.46
0.0351562,64.3717,17.62
0.035498,65.4183,17.78
0.035791,66.1044,17.94
0.0361328,66.9496,18.1
0.0364746,67.7982,18.26
0.0368164,68.6692,18.42
0.0371582,69.617,18.58
0.0375,70.4877,18.74
0.0378418,71.311,18.9
0.0381836,72.2437,19.06
0.0384766,73.0491,19.22
0.0388184,73.8515,19.38
0.0391113,74.6561,19.54
0.0394531,75.6741,19.7
0.0397949,76.4055,19.86
0.0400879,77.2235,20.02
0.0403809,78.1507,20.18
0.0406738,78.9302,20.34
0.0410156,79.835,20.5
0.0412598,80.4758,20.66
0.0416016,81.2253,20.82
0.0418945,82.3385,20.98
0.0421875,82.9663,21.14
0.0425293,84.123,21.3
0.0428711,85.087,21.46
0.0432129,86.168,21.62
0.0436035,87.256,21.78
0.0439453,88.0877,21.94
0.0442383,89.2181,22.1
0.04458008,89.9129,22.26
0.0449219,91.0375,22.42
0.0452148,91.8687,22.58
0.0455566,92.8493,22.74
0.0458984,93.8944,22.9
0.0461914,94.8077,23.06
0.0464844,95.8537,23.22
0.0468262,96.7073,23.38
0.0471191,97.611,23.54
0.0474121,98.5146,23.7
0.0477051,99.386,23.86
0.047998,100.478,24.02
0.048291,101.281,24.18
0.048584,102.401,24.34
0.04892578,103.339,24.5
0.0492676,104.395,24.66
0.0495605,105.569,24.82
0.0499023,106.58,24.98
0.05024414,107.807,25.14
0.0505859,108.996,25.3
0.0509277,109.984,25.46
0.05126953,111.214,25.62
0.0515625,112.225,25.78
0.0519043,113.56,25.94
0.0522461,114.545,26.1
0.0525391,115.835,26.26
0.052832,116.894,26.42
0.05317383,117.875,26.58
0.0534668,119.252,26.74
0.0538086,120.362,26.9
0.0540527,121.558,27.06
0.0543457,122.644,27.22
0.0546875,123.967,27.38
0.0549805,125.307,27.54
0.0552734,126.486,27.7
0.0556152,128.176,27.86
0.055957,129.523,28.02
0.0562988,130.829,28.18
0.0566406,132.647,28.34
0.0570313,134.308,28.5
0.0573242,135.964,28.66
0.057666,137.592,28.82
0.0580078,139.156,28.98
0.0583496,140.893,29.14
0.0586914,142.506,29.3
0.0589844,144.168,29.46
0.0592773,145.808,29.62
0.0596191,147.637,29.78
0.0599121,149.1819,29.94
0.0602051,150.813,30.1
0.0605469,152.539,30.26
0.0608398,154.204,30.42
0.0611328,155.849,30.58
0.0614258,157.752,30.74
0.0617187,159.313,30.9
0.06206055,161.277,31.06
0.0623535,163.115,31.22
0.0626953,164.973,31.38
0.0630371,167.096,31.54
0.06337891,169.061,31.7
0.0637207,171.357,31.86
0.0640625,173.016,32.02
0.0644043,175.326,32.18
0.0647461,176.983,32.34
0.0650391,178.74,32.5
0.06538086,180.457,32.66
0.0656738,182.281,32.82
0.0660156,183.873,32.98
0.0663086,184.688,33.14
0.0666504,185.078,33.3
0.0669434,185.199,33.46
0.0672363,186.01,33.62
0.0675293,186.989,33.78
0.0678223,188.377,33.94
0.0681641,189.632,34.1
0.068457,190.31,34.26
0.06875,191.669,34.42
0.0690918,192.778,34.58
0.0693848,193.98,34.74
0.0697266,195.382,34.9
0.0701172,195.373,35.06
0.070459,195.289,35.22
0.0708008,195.654,35.38
0.0711426,195.267,35.54
0.0714355,192.576,35.7
0.0717773,189.34,35.86
0.0721191,186.669,36.02
0.0724121,184.887,36.18
0.0727539,184.267,36.34
0.0730957,183.057,36.5
0.07338867,181.754,36.66
0.0736816,178.815,36.82
0.07397461,177.476,36.98
0.0742676,176.873,37.14
0.07456055,177.296,37.3
0.0749023,177.75,37.46
0.0751953,178.678,37.62
0.0754883,179.478,37.78
0.0758301,180.079,37.94
0.0761719,180.532,38.1
0.0765137,180.869,38.26
0.0768555,180.296,38.42
0.0771973,180.1,38.58
0.0775391,180.165,38.74
0.0778809,180.089,38.9
0.0781738,180.353,39.06
0.0785156,180.488,39.22
0.0788086,180.122,39.38
0.0791504,180.184,39.54
0.0794434,180.231,39.7
0.0797363,180.545,39.86
0.0800293,180.811,40.02
0.0803711,181.471,40.18
0.08066406,182.3638,40.34
0.080957,182.945,40.5
0.08125,183.407,40.66
0.081543,182.928,40.82
0.08183594,182.442,40.98
0.0821289,181.309,41.14
0.0824707,176.952,41.3
0.0828125,172.325,41.46
0.0831543,169.116,41.62
0.0835449,167.352,41.78
0.0838379,165.299,41.94
0.0841797,164.187,42.1
0.0845215,163.586,42.26
0.0848633,162.478,42.42
0.08520508,162.331,42.58
0.085498,161.467,42.74
0.0858398,160.182,42.9
0.0861328,159.062,43.06
0.0864746,158.087,43.22
0.0867676,157.427,43.38
0.0870605,156.335,43.54
0.0873535,155.547,43.7
0.0876953,154.3,43.86
0.0879883,151.964,44.02
0.0882813,149.818,44.18
0.0885742,147.68,44.34
0.088916,146.468,44.5
0.089209,145.074,44.66
0.0895508,144.159,44.82
0.0899414,142.888,44.98
0.0902832,140.1,45.14
0.090625,137.574,45.3
0.0909668,134.517,45.46
0.0913086,132.15,45.62
0.0916504,129.764,45.78
0.0919434,127.137,45.94
0.0922363,123.218,46.1
0.0924316,19.1399,46.181