Folder: Concrete-Toolchanger/Data/Thesis_Samples_Data/Flexural_Layered_2

Note: README.md
# Concrete-Toolchanger
My senior thesis project from Princeton consisted of developing a multi-material concrete 3D-printer.

Using an E3D TOolchanger as the base motion system, custom concrete and silicone extruders were developed to be compatible with the toolchanging system.
A system for reliably priming the polymer Hemera extruders was also developed. The mechanics and electronics were controlled using a Duet board and RRF3,
which allowed for all of the toolchanging procedures and material interactions to be controlled by macros. Additionally, rather than using a traditional
slicer, FullControlGCode was used to create parametric toolpaths tailored to each type of extruder. Together, silicone and polymers were combined with
cement and mortar to create new concrete multi-materials with augmented material properties.

Check out the full thesis PDF for more details!

File: DAQ- Crosshead, … - (Timed).txt
File Path: C:\Users\Lab User\Desktop\Will\Thesis Tests\Test Run 2 04-8-22 14 19 41 PM\DAQ- Crosshead, … - (Timed).txt
Test: MTS EM Flexure (3-Point Bend) - Will 1
Test Run: Test Run 2
Date: 4/8/2022 2:05:09 PM

Crosshead 	Load 	Time
mm	N	sec
0	1.74845	0.02
0.00522461	3.27619	2.68
0.0106445	4.71529	5.34
0.0160156	6.42851	8
0.0213867	8.39058	10.66
0.026709	10.1641	13.32
0.0318848	12.6588	15.98
0.037207	15.0816	18.64
0.0426758	16.9739	21.3
0.0479492	19.6061	23.96
0.0531738	22.0716	26.62
0.0584961	24.5366	29.28
0.0638672	27.2659	31.94
0.0692383	29.9385	34.6
0.0745606	32.4967	37.26
0.079834	35.3148	39.92
0.0850586	38.2212	42.58
0.0904785	41.0391	45.24
0.0958496	43.8904	47.9
0.101123	46.9957	50.56
0.106396	50.1299	53.22
0.11167	53.1691	55.88
0.11709	56.5302	58.54
0.122461	59.8127	61.2
0.127783	62.9062	63.86
0.133008	66.1416	66.52
0.138232	69.2194	69.18
0.143652	72.5008	71.84
0.149072	75.7412	74.5
0.154395	78.8737	77.16
0.159619	81.7846	79.82
0.164893	82.2649	82.48
0.170264	84.4184	85.14
0.175635	36.3679	87.8
0.180957	38.4961	90.46
0.186182	40.3254	93.12
0.191553	41.8204	95.78
0.196924	34.0183	98.44
0.202246	33.495	101.1
0.207568	32.6264	103.76
0.212793	32.9686	106.42
0.218066	34.024	109.08
0.223486	34.9831	111.74
0.228906	36.1394	114.4
0.234131	37.1664	117.06
0.239355	38.1202	119.72
0.244727	39.2298	122.38
0.250098	40.0825	125.04
0.255469	41.0435	127.7
0.260791	42.1228	130.36
0.265967	42.9291	133.02
0.27124	43.8143	135.68
0.276709	44.8471	138.34
0.28208	45.7561	141
0.287402	46.7299	143.66
0.292578	47.6715	146.32
0.2979	48.5812	148.98
0.303271	49.4202	151.64
0.308643	50.5204	154.3
0.313965	51.4169	156.96
0.319189	50.7874	159.62
0.324561	51.566	162.28
0.329932	52.2128	164.94
0.335205	46.617	167.6
0.340527	46.7625	170.26
0.345752	46.559	172.92
0.351123	28.294	175.58
0.356494	28.6919	178.24
0.361865	29.0527	180.9
0.367139	29.8422	183.56
0.372314	30.2365	186.22
0.377686	30.735	188.88
0.383154	31.3148	191.54
0.388477	31.4353	194.2
0.393799	31.7535	196.86
0.398926	32.15	199.52
0.404297	32.0964	202.18
0.409717	32.1301	204.84
0.415039	31.4655	207.5
0.420313	31.8465	210.16
0.425586	32.1483	212.82
0.430908	32.616	215.48
0.436279	33.0214	218.14
0.44165	33.2453	220.8
0.446924	33.4921	223.46
0.452148	33.5924	226.12
0.45752	33.8288	228.78
0.462939	33.7844	231.44
0.468213	29.3296	234.1
0.473535	29.5757	236.76
0.47876	30.1857	239.42
0.484131	30.6323	242.08
0.489551	30.8298	244.74
0.494873	31.2635	247.4
0.500049	31.7825	250.06
0.505322	31.9823	252.72
0.510742	32.1948	255.38
0.516113	32.7428	258.04
0.521484	32.2133	260.7
0.526758	32.6188	263.36
0.531934	32.9494	266.02
0.537305	33.1969	268.68
0.542725	33.592	271.34
0.548096	33.7662	274
0.55332	34.1529	276.66
0.558594	34.2578	279.32
0.563965	34.4204	281.98
0.569287	34.7526	284.64
0.574609	34.7779	287.3
0.579932	31.3649	289.96
0.585156	21.621	292.62
0.590527	21.596	295.28
0.595947	21.9112	297.94
0.601221	21.971	300.6
0.606445	22.1772	303.26
0.611768	22.2347	305.92
0.617139	22.2334	308.58
0.622559	22.682	311.24
0.627881	22.5672	313.9
0.633057	22.7281	316.56
0.63833	22.6671	319.22
0.643799	22.6503	321.88
0.64917	22.8804	324.54
0.654443	22.8032	327.2
0.659717	22.8323	329.86
0.66499	22.8373	332.52
0.670361	22.8716	335.18
0.675781	22.8809	337.84
0.681055	23.0956	340.5
0.686279	23.0748	343.16
0.691602	23.1129	345.82
0.696973	23.2608	348.48
0.702295	23.1519	351.14
0.707666	23.3055	353.8
0.712891	23.3659	356.46
0.718164	23.2724	359.12
0.723584	23.4436	361.78
0.728955	23.5225	364.44
0.734229	23.4827	367.1
0.739404	23.652	369.76
0.744775	23.722	372.42
0.750195	23.6973	375.08
0.755566	23.8094	377.74
0.76084	23.8083	380.4
0.766064	23.6685	383.06
0.771338	23.848	385.72
0.776758	23.7877	388.38
0.782129	23.7643	391.04
0.787451	23.8239	393.7
0.792725	23.7109	396.36
0.797998	23.8721	399.02
0.803369	23.8591	401.68
0.80874	23.8425	404.34
0.814014	23.8759	407
0.819238	23.8982	409.66
0.824609	23.8059	412.32
0.830029	23.8734	414.98
0.835303	23.9565	417.64
0.840625	23.8799	420.3
0.845898	23.9605	422.96
0.851172	24.1374	425.62
0.856592	24.0559	428.28
0.861963	24.0041	430.94
0.867236	24.1895	433.6
0.872412	24.2322	436.26
0.877783	24.106	438.92
0.883154	24.2287	441.58
0.888525	24.2792	444.24
0.893848	24.2286	446.9
0.899023	24.2001	449.56
0.904395	24.0298	452.22
0.909814	24.0736	454.88
0.915137	23.8222	457.54
0.92041	23.948	460.2
0.925635	24.1642	462.86
0.931006	24.0127	465.52
0.936328	24.0806	468.18
0.941699	24.1212	470.84
0.947021	24.0683	473.5
0.952246	24.1481	476.16
0.957568	24.0911	478.82
0.962988	24.0739	481.48
0.968311	24.0836	484.14
0.973584	24.0951	486.8
0.978809	24.2318	489.46
0.984229	24.1395	492.12
0.9896	24.2441	494.78
0.994971	24.2587	497.44
1.00015	24.1438	500.1
1.00537	24.2762	502.76
1.01084	24.0999	505.42
1.01621	24.2724	508.08
1.02153	24.2167	510.74
1.02686	24.2416	513.4
1.03203	24.4429	516.06
1.03735	24.262	518.72
1.04282	24.3997	521.38
1.04814	24.3072	524.04
1.05337	24.3193	526.7
1.05864	24.5101	529.36
1.06401	24.3393	532.02
1.06938	24.3853	534.68
1.07476	24.4123	537.34
1.07998	24.3583	540
1.08525	24.5117	542.66
1.09067	24.4771	545.32
1.096	24.4258	547.98
1.10132	24.4958	550.64
1.10659	24.5253	553.3
1.11182	24.3822	555.96
1.11724	24.5009	558.62
1.12261	24.4798	561.28
1.12798	24.4716	563.94
1.13315	24.543	566.6
1.13843	24.51	569.26
1.14385	24.4524	571.92
1.14922	24.5994	574.58
1.15454	24.467	577.24
1.15977	24.4534	579.9
1.16509	24.6204	582.56
1.17041	24.5146	585.22
1.17578	24.5284	587.88
1.18115	24.5797	590.54
1.18638	24.5174	593.2
1.1917	24.4879	595.86
1.19707	24.6623	598.52
1.20239	24.4824	601.18
1.20771	24.4423	603.84
1.21299	24.5693	606.5
1.21821	24.5354	609.16
1.22368	24.5585	611.82
1.22905	24.6142	614.48
1.23428	24.5215	617.14
1.2395	24.5528	619.8
1.24487	24.5914	622.46
1.25024	24.4562	625.12
1.25562	24.4951	627.78
1.26094	24.4823	630.44
1.26611	24.3433	633.1
1.27144	24.4306	635.76
1.27686	24.4907	638.42
1.28223	24.3934	641.08
1.28755	24.3853	643.74
1.29277	24.5395	646.4
1.29805	24.4958	649.06
1.30342	24.4085	651.72
1.30884	24.5319	654.38
1.31411	24.486	657.04
1.31934	24.4073	659.7
1.32466	24.512	662.36
1.33008	24.4531	665.02
1.3354	24.5025	667.68
1.34067	24.5606	670.34
1.34595	24.6058	673
1.35127	24.47	675.66
1.35669	24.5937	678.32
1.36206	24.7029	680.98
1.36729	24.5438	683.64
1.37251	24.5806	686.3
1.37783	24.7362	688.96
1.3833	24.5534	691.62
1.38862	24.5639	694.28
1.39395	24.6938	696.94
1.39912	24.6169	699.6
1.40444	24.5619	702.26
1.40991	24.6946	704.92
1.41519	24.6045	707.58
1.42046	24.6497	710.24
1.42578	24.608	712.9
1.43105	24.6656	715.56
1.43643	24.5414	718.22
1.44185	24.7417	720.88
1.44712	24.6888	723.54
1.45234	24.5209	726.2
1.45767	24.599	728.86
1.46309	24.6263	731.52
1.46841	24.5143	734.18
1.47368	24.5641	736.84
1.47891	24.6544	739.5
1.48428	24.4883	742.16
1.4897	24.4667	744.82
1.49502	24.5741	747.48
1.50024	24.5132	750.14
1.50552	24.41	752.8
1.51089	24.5207	755.46
1.51631	24.4504	758.12
1.52163	24.3422	760.78
1.5269	24.3989	763.44
1.53213	24.2858	766.1
1.53745	24.258	768.76
1.54287	24.3425	771.42
1.54824	24.2251	774.08
1.55352	24.3112	776.74
1.55874	24.3404	779.4
1.56411	24.2234	782.06
1.56948	24.2253	784.72
1.5748	24.2527	787.38
1.58008	24.2985	790.04
1.5853	24.1796	792.7
1.59072	24.2354	795.36
1.5937	24.1776	796.82

File: Flexural_Layered_2.csv
"File Path: C:\Users\Lab User\Desktop\Will\Thesis Tests\Test Run 2 04-8-22 14 19 41 PM\DAQ- Crosshead, … - (Timed).txt   ",,
Test: MTS EM Flexure (3-Point Bend) - Will 1,,
Test Run: Test Run 2,,
Date: 4/8/2022 2:05:09 PM,,
,,
,,
Crosshead ,Load ,Time
mm,N,sec
0,1.74845,0.02
0.00522461,3.27619,2.68
0.0106445,4.71529,5.34
0.0160156,6.42851,8
0.0213867,8.39058,10.66
0.026709,10.1641,13.32
0.0318848,12.6588,15.98
0.037207,15.0816,18.64
0.04267578,16.9739,21.3
0.0479492,19.6061,23.96
0.05317383,22.0716,26.62
0.0584961,24.5366,29.28
0.0638672,27.2659,31.94
0.0692383,29.9385,34.6
0.07456055,32.4967,37.26
0.079834,35.3148,39.92
0.0850586,38.2212,42.58
0.0904785,41.0391,45.24
0.0958496,43.8904,47.9
0.101123,46.9957,50.56
0.106396,50.1299,53.22
0.11167,53.1691,55.88
0.11709,56.5302,58.54
0.122461,59.8127,61.2
0.127783,62.9062,63.86
0.133008,66.1416,66.52
0.138232,69.2194,69.18
0.143652,72.5008,71.84
0.149072,75.7412,74.5
0.154395,78.8737,77.16
0.159619,81.7846,79.82
0.164893,82.2649,82.48
0.170264,84.4184,85.14
0.175635,36.3679,87.8
0.180957,38.4961,90.46
0.186182,40.3254,93.12
0.191553,41.8204,95.78
0.196924,34.0183,98.44
0.202246,33.495,101.1
0.207568,32.6264,103.76
0.212793,32.9686,106.42
0.218066,34.024,109.08
0.223486,34.9831,111.74
0.228906,36.1394,114.4
0.234131,37.1664,117.06
0.239355,38.1202,119.72
0.244727,39.2298,122.38
0.250098,40.0825,125.04
0.255469,41.0435,127.7
0.260791,42.1228,130.36
0.265967,42.9291,133.02
0.27124,43.8143,135.68
0.276709,44.8471,138.34
0.28208,45.7561,141
0.287402,46.7299,143.66
0.292578,47.6715,146.32
0.2979,48.5812,148.98
0.303271,49.4202,151.64
0.308643,50.5204,154.3
0.313965,51.4169,156.96
0.319189,50.7874,159.62
0.324561,51.566,162.28
0.329932,52.2128,164.94
0.335205,46.617,167.6
0.340527,46.7625,170.26
0.345752,46.559,172.92
0.351123,28.294,175.58
0.356494,28.6919,178.24
0.361865,29.0527,180.9
0.367139,29.8422,183.56
0.372314,30.2365,186.22
0.377686,30.735,188.88
0.383154,31.3148,191.54
0.388477,31.4353,194.2
0.393799,31.7535,196.86
0.398926,32.15,199.52
0.404297,32.0964,202.18
0.409717,32.1301,204.84
0.415039,31.4655,207.5
0.420313,31.8465,210.16
0.425586,32.1483,212.82
0.4309082,32.616,215.48
0.436279,33.0214,218.14
0.44165,33.2453,220.8
0.446924,33.4921,223.46
0.452148,33.5924,226.12
0.45752,33.8288,228.78
0.462939,33.7844,231.44
0.468213,29.3296,234.1
0.473535,29.5757,236.76
0.47876,30.1857,239.42
0.484131,30.6323,242.08
0.489551,30.8298,244.74
0.494873,31.2635,247.4
0.500049,31.7825,250.06
0.505322,31.9823,252.72
0.510742,32.1948,255.38
0.516113,32.7428,258.04
0.521484,32.2133,260.7
0.526758,32.6188,263.36
0.531934,32.9494,266.02
0.537305,33.1969,268.68
0.542725,33.592,271.34
0.548096,33.7662,274
0.55332,34.1529,276.66
0.558594,34.2578,279.32
0.563965,34.4204,281.98
0.569287,34.7526,284.64
0.574609,34.7779,287.3
0.579932,31.3649,289.96
0.585156,21.621,292.62
0.590527,21.596,295.28
0.595947,21.9112,297.94
0.601221,21.971,300.6
0.606445,22.1772,303.26
0.611768,22.2347,305.92
0.617139,22.2334,308.58
0.622559,22.682,311.24
0.627881,22.5672,313.9
0.633057,22.7281,316.56
0.63833,22.6671,319.22
0.643799,22.6503,321.88
0.64917,22.8804,324.54
0.654443,22.8032,327.2
0.659717,22.8323,329.86
0.66499,22.8373,332.52
0.670361,22.8716,335.18
0.675781,22.8809,337.84
0.681055,23.0956,340.5
0.686279,23.0748,343.16
0.691602,23.1129,345.82
0.696973,23.2608,348.48
0.702295,23.1519,351.14
0.707666,23.3055,353.8
0.712891,23.3659,356.46
0.718164,23.2724,359.12
0.723584,23.4436,361.78
0.728955,23.5225,364.44
0.734229,23.4827,367.1
0.739404,23.652,369.76
0.744775,23.722,372.42
0.750195,23.6973,375.08
0.755566,23.8094,377.74
0.76084,23.8083,380.4
0.766064,23.6685,383.06
0.771338,23.848,385.72
0.776758,23.7877,388.38
0.782129,23.7643,391.04
0.787451,23.8239,393.7
0.792725,23.7109,396.36
0.797998,23.8721,399.02
0.803369,23.8591,401.68
0.80874,23.8425,404.34
0.814014,23.8759,407
0.819238,23.8982,409.66
0.824609,23.8059,412.32
0.830029,23.8734,414.98
0.835303,23.9565,417.64
0.840625,23.8799,420.3
0.845898,23.9605,422.96
0.851172,24.1374,425.62
0.856592,24.0559,428.28
0.861963,24.0041,430.94
0.867236,24.1895,433.6
0.872412,24.2322,436.26
0.877783,24.106,438.92
0.883154,24.2287,441.58
0.888525,24.2792,444.24
0.893848,24.2286,446.9
0.899023,24.2001,449.56
0.904395,24.0298,452.22
0.909814,24.0736,454.88
0.915137,23.8222,457.54
0.92041,23.948,460.2
0.925635,24.1642,462.86
0.931006,24.0127,465.52
0.936328,24.0806,468.18
0.941699,24.1212,470.84
0.947021,24.0683,473.5
0.952246,24.1481,476.16
0.957568,24.0911,478.82
0.962988,24.0739,481.48
0.968311,24.0836,484.14
0.973584,24.0951,486.8
0.978809,24.2318,489.46
0.984229,24.1395,492.12
0.9896,24.2441,494.78
0.994971,24.2587,497.44
1.00015,24.1438,500.1
1.00537,24.2762,502.76
1.01084,24.0999,505.42
1.01621,24.2724,508.08
1.02153,24.2167,510.74
1.02686,24.2416,513.4
1.03203,24.4429,516.06
1.03735,24.262,518.72
1.04282,24.3997,521.38
1.04814,24.3072,524.04
1.05337,24.3193,526.7
1.05864,24.5101,529.36
1.06401,24.3393,532.02
1.06938,24.3853,534.68
1.07476,24.4123,537.34
1.07998,24.3583,540
1.08525,24.5117,542.66
1.09067,24.4771,545.32
1.096,24.4258,547.98
1.10132,24.4958,550.64
1.10659,24.5253,553.3
1.11182,24.3822,555.96
1.11724,24.5009,558.62
1.12261,24.4798,561.28
1.12798,24.4716,563.94
1.13315,24.543,566.6
1.13843,24.51,569.26
1.14385,24.4524,571.92
1.14922,24.5994,574.58
1.15454,24.467,577.24
1.15977,24.4534,579.9
1.16509,24.6204,582.56
1.17041,24.5146,585.22
1.17578,24.5284,587.88
1.18115,24.5797,590.54
1.18638,24.5174,593.2
1.1917,24.4879,595.86
1.19707,24.6623,598.52
1.20239,24.4824,601.18
1.20771,24.4423,603.84
1.21299,24.5693,606.5
1.21821,24.5354,609.16
1.22368,24.5585,611.82
1.22905,24.6142,614.48
1.23428,24.5215,617.14
1.2395,24.5528,619.8
1.24487,24.5914,622.46
1.25024,24.4562,625.12
1.25562,24.4951,627.78
1.26094,24.4823,630.44
1.26611,24.3433,633.1
1.27144,24.4306,635.76
1.27686,24.4907,638.42
1.28223,24.3934,641.08
1.28755,24.3853,643.74
1.29277,24.5395,646.4
1.29805,24.4958,649.06
1.30342,24.4085,651.72
1.30884,24.5319,654.38
1.31411,24.486,657.04
1.31934,24.4073,659.7
1.32466,24.512,662.36
1.33008,24.4531,665.02
1.3354,24.5025,667.68
1.34067,24.5606,670.34
1.34595,24.6058,673
1.35127,24.47,675.66
1.35669,24.5937,678.32
1.36206,24.7029,680.98
1.36729,24.5438,683.64
1.37251,24.5806,686.3
1.37783,24.7362,688.96
1.3833,24.5534,691.62
1.38862,24.5639,694.28
1.39395,24.6938,696.94
1.39912,24.6169,699.6
1.40444,24.5619,702.26
1.40991,24.6946,704.92
1.41519,24.6045,707.58
1.42046,24.6497,710.24
1.42578,24.608,712.9
1.43105,24.6656,715.56
1.43643,24.5414,718.22
1.44185,24.7417,720.88
1.44712,24.6888,723.54
1.45234,24.5209,726.2
1.45767,24.599,728.86
1.46309,24.6263,731.52
1.46841,24.5143,734.18
1.47368,24.5641,736.84
1.47891,24.6544,739.5
1.48428,24.4883,742.16
1.4897,24.4667,744.82
1.49502,24.5741,747.48
1.50024,24.5132,750.14
1.50552,24.41,752.8
1.51089,24.5207,755.46
1.51631,24.4504,758.12
1.52163,24.3422,760.78
1.5269,24.3989,763.44
1.53213,24.2858,766.1
1.53745,24.258,768.76
1.54287,24.3425,771.42
1.54824,24.2251,774.08
1.55352,24.3112,776.74
1.55874,24.3404,779.4
1.56411,24.2234,782.06
1.56948,24.2253,784.72
1.5748,24.2527,787.38
1.58008,24.2985,790.04
1.5853,24.1796,792.7
1.59072,24.2354,795.36
1.5937,24.1776,796.82